<?xml version="1.0" encoding="UTF-8"?>
<Bundle xmlns="http://hl7.org/fhir">
	<id value="pdmp-response"/>
	<meta>
		<lastUpdated value="2017-03-28T16:01:11Z"/>
	</meta>
	<type value="searchset"/>
	<total value="6"/>
	<link>
		<relation value="self"/>
		<url value="http://fhir3.healthintersections.com.au/open/MedicationStatement?search-id=e6c7f360-ffc5-4ea0-be38-f112e481fb&amp;&amp;patient=test2&amp;_sort=_id"/>
	</link>
	<entry>
		<fullUrl value="http://fhir3.healthintersections.com.au/open/MedicationStatement/derivedfrom-mr-test2-1"/>
		<resource>
			<MedicationStatement xmlns="http://hl7.org/fhir">
				<id value="derivedfrom-mr-test2-1"/>
				<meta>
					<versionId value="2"/>
					<lastUpdated value="2017-03-28T15:55:55Z"/>
					<profile value="http://hl7.org/fhir/us/core/StructureDefinition/us-core-medicationstatement"/>
				</meta>
				<status value="active"/>
				<medicationCodeableConcept>
					<coding>
						<system value="http://www.nlm.nih.gov/research/umls/rxnorm"/>
						<code value="104491"/>
						<display value="Simvastatin 20 MG Oral Tablet [Zocor]"/>
						<userSelected value="false"/>
					</coding>
					<text value="Zocor (simvastatin) 20mg Tablet"/>
				</medicationCodeableConcept>
				<effectivePeriod>
					<start value="2016-01-15"/>
				</effectivePeriod>
				<dateAsserted value="2016-01-25"/>
				<informationSource>
					<display value="Dr Cayr"/>
				</informationSource>
				<subject>
					<reference value="Patient/test2"/>
					<display value="Brian Z"/>
				</subject>
				<derivedFrom>
					<reference value="MedicationRequest/test2-1"/>
				</derivedFrom>
				<taken value="na"/>
				<reasonCode>
					<coding>
						<system value="http://snomed.info/sct"/>
						<code value="13644009"/>
						<display value="Hypercholesterolemia (disorder)"/>
						<userSelected value="false"/>
					</coding>
				</reasonCode>
				<dosage>
					<sequence value="1"/>
					<text value="40mg by mouth once daily"/>
					<asNeededBoolean value="false"/>
					<route>
						<coding>
							<system value="http://ncimeta.nci.nih.gov"/>
							<code value="C38288"/>
							<display value="ORAL"/>
							<userSelected value="false"/>
						</coding>
					</route>
				</dosage>
			</MedicationStatement>
		</resource>
		<search>
			<mode value="match"/>
		</search>
	</entry>
	<entry>
		<fullUrl value="http://fhir3.healthintersections.com.au/open/MedicationStatement/derivedfrom-mr-test2-2"/>
		<resource>
			<MedicationStatement xmlns="http://hl7.org/fhir">
				<id value="derivedfrom-mr-test2-2"/>
				<meta>
					<versionId value="2"/>
					<lastUpdated value="2017-03-28T15:58:01Z"/>
					<profile value="http://hl7.org/fhir/us/core/StructureDefinition/us-core-medicationstatement"/>
				</meta>
				<status value="active"/>
				<medicationCodeableConcept>
					<coding>
						<system value="http://www.nlm.nih.gov/research/umls/rxnorm"/>
						<code value="311036"/>
						<display value="Humulin R (insulin regular, human) U100  100units/ml inj solution"/>
						<userSelected value="false"/>
					</coding>
					<text value="Humulin R (insulin regular, human) U100  100units/ml inj solution"/>
				</medicationCodeableConcept>
				<effectivePeriod>
					<start value="2015-07-01"/>
				</effectivePeriod>
				<dateAsserted value="2017-01-21"/>
				<informationSource>
					<display value="Dr Cayr"/>
				</informationSource>
				<subject>
					<reference value="Patient/test2"/>
					<display value="Brian Z"/>
				</subject>
				<derivedFrom>
					<reference value="MedicationRequest/test2-2"/>
				</derivedFrom>
				<taken value="na"/>
				<dosage>
					<sequence value="1"/>
					<text value="10U every AM, 5U every PM, 5U at bedtime"/>
					<asNeededBoolean value="false"/>
					<route>
						<coding>
							<system value="http://snomed.info/sct"/>
							<code value="34206005"/>
							<display value="Subcutaneous route (qualifier value)"/>
							<userSelected value="false"/>
						</coding>
					</route>
				</dosage>
			</MedicationStatement>
		</resource>
		<search>
			<mode value="match"/>
		</search>
	</entry>
	<entry>
		<fullUrl value="http://fhir3.healthintersections.com.au/open/MedicationStatement/derivedfrom-mr-test2-3"/>
		<resource>
			<MedicationStatement xmlns="http://hl7.org/fhir">
				<id value="derivedfrom-mr-test2-3"/>
				<meta>
					<versionId value="2"/>
					<lastUpdated value="2017-03-28T16:00:39Z"/>
					<profile value="http://hl7.org/fhir/us/core/StructureDefinition/us-core-medicationstatement"/>
				</meta>
				<status value="completed"/>
				<medicationCodeableConcept>
					<coding>
						<system value="http://www.nlm.nih.gov/research/umls/rxnorm"/>
						<code value="314231"/>
						<display value="Simvastatin 10 MG Oral Tablet"/>
						<userSelected value="false"/>
					</coding>
					<text value="simvastatin 10mg Tablet"/>
				</medicationCodeableConcept>
				<effectivePeriod>
					<start value="2015-06-12"/>
					<end value="2016-01-15"/>
				</effectivePeriod>
				<dateAsserted value="2017-03-15T16:07:59.169-07:00"/>
				<informationSource>
					<display value="Dr Cayr"/>
				</informationSource>
				<subject>
					<reference value="Patient/test2"/>
					<display value="Brian Z"/>
				</subject>
				<derivedFrom>
					<reference value="MedicationRequest/test2-3"/>
				</derivedFrom>
				<taken value="na"/>
				<reasonCode>
					<coding>
						<system value="http://snomed.info/sct"/>
						<code value="13644009"/>
						<display value="Hypercholesterolemia (disorder)"/>
						<userSelected value="false"/>
					</coding>
				</reasonCode>
				<dosage>
					<sequence value="1"/>
					<text value="30mg (3 tablets) by mouth once daily"/>
					<asNeededBoolean value="false"/>
					<route>
						<coding>
							<system value="http://ncimeta.nci.nih.gov"/>
							<code value="C38288"/>
							<display value="ORAL"/>
							<userSelected value="false"/>
						</coding>
					</route>
				</dosage>
			</MedicationStatement>
		</resource>
		<search>
			<mode value="match"/>
		</search>
	</entry>
	<entry>
		<fullUrl value="http://fhir3.healthintersections.com.au/open/MedicationStatement/test2-1"/>
		<resource>
			<MedicationStatement xmlns="http://hl7.org/fhir">
				<id value="test2-1"/>
				<meta>
					<versionId value="2"/>
					<lastUpdated value="2017-03-28T15:49:10Z"/>
					<profile value="http://hl7.org/fhir/us/core/StructureDefinition/us-core-medicationstatement"/>
				</meta>
				<status value="completed"/>
				<medicationCodeableConcept>
					<coding>
						<system value="http://www.nlm.nih.gov/research/umls/rxnorm"/>
						<code value="835829"/>
						<display value="testosterone cypionate 100 MG/ML Injectable Solution"/>
						<userSelected value="false"/>
					</coding>
					<text value="testosterone cypionate 100mg/ml inj"/>
				</medicationCodeableConcept>
				<effectiveDateTime value="2016-09-01"/>
				<dateAsserted value="2016-09-01"/>
				<informationSource>
					<display value="Dr. Cryn"/>
				</informationSource>
				<subject>
					<reference value="Patient/test2"/>
					<display value="Brian Z"/>
				</subject>
				<taken value="y"/>
			</MedicationStatement>
		</resource>
		<search>
			<mode value="match"/>
		</search>
	</entry>
	<entry>
		<fullUrl value="http://fhir3.healthintersections.com.au/open/MedicationStatement/test2-2"/>
		<resource>
			<MedicationStatement xmlns="http://hl7.org/fhir">
				<id value="test2-2"/>
				<meta>
					<versionId value="1"/>
					<lastUpdated value="2017-03-28T14:26:52Z"/>
					<profile value="http://hl7.org/fhir/us/core/StructureDefinition/us-core-medicationstatement"/>
				</meta>
				<status value="active"/>
				<medicationCodeableConcept>
					<coding>
						<system value="http://www.nlm.nih.gov/research/umls/rxnorm"/>
						<code value="835829"/>
						<display value="testosterone cypionate 100 MG/ML Injectable Solution"/>
						<userSelected value="false"/>
					</coding>
					<text value="testosterone cypionate 100mg/ml inj"/>
				</medicationCodeableConcept>
				<effectivePeriod>
					<start value="2016-09-12"/>
				</effectivePeriod>
				<dateAsserted value="2016-09-12"/>
				<informationSource>
					<display value="Brian Z"/>
				</informationSource>
				<subject>
					<reference value="Patient/test2"/>
					<display value="Brian Z"/>
				</subject>
				<taken value="y"/>
				<note>
					<text value="Get at doctor's office every third Friday. Taking for energy level and drive."/>
				</note>
			</MedicationStatement>
		</resource>
		<search>
			<mode value="match"/>
		</search>
	</entry>
</Bundle>
